Folder: feff_find_best_fit/data/experiment

Note: README.md
# feff_find_best_fit
Compare theoretical and experimental spectra and find the best fit for their linear combinations.

File: experiment_ZnO__ref_O-Kedge_[0,45,75].dat
# XDI/1.0 Demeter/0.9.26
# Demeter.output_filetype: multicolumn normalized mu(E)
# Element.symbol: O
# Element.edge: K
# Column.1: energy eV
# Column.2: 69_ZnO__ref__angle=0_deg__O-edge__Mon_SR_Io.dat
# Column.3: 70_ZnO__ref__angle=45_deg__O-edge__Mon_SR_Io.dat
# Column.4: 71_ZnO__ref__angle=75_deg__O-edge__Mon_SR_Io.dat
#------------------------
#  energy  69_ZnO__ref__angle=0_deg__O-edge__Mon_SR_Io.dat  70_ZnO__ref__angle=45_deg__O-edge__Mon_SR_Io.dat  71_ZnO__ref__angle=75_deg__O-edge__Mon_SR_Io.dat
  510.001      -0.113947      -0.115766      -0.164856
  513      -0.0134427  -0.00933786  -0.0428599
  516      -0.044208  -0.0444318  -0.0709715
  519      -0.0394054  -0.0364107  -0.0506729
  522      -0.0116961  -0.0117777  -0.0155124
  525       0.00533675   0.0137157   0.0223292
  526.2       0.00832914  -0.00287802  -0.00650984
  526.501       0.0119666  -0.00338624  -0.0109728
  526.8       0.0175521   0.00530101  -0.00707416
  527.1       0.0243424   0.0129041   0.00451698
  527.401       0.0331594   0.0264302   0.0146371
  527.7       0.0408329   0.0323443   0.0243022
  528       0.0420594   0.0326755   0.030086
  528.3       0.0377194   0.0303302   0.0288875
  528.6       0.032917   0.0274948   0.0289028
  528.899       0.0251134   0.0223543   0.0277919
  529.2       0.0194008   0.0179599   0.027736
  529.5       0.0154895   0.0165542   0.0298447
  529.8       0.0157444   0.0175356   0.0347127
  530.101       0.0233195   0.0285131   0.0461196
  530.4       0.0516229   0.0580616   0.076914
  530.7       0.113623       0.117788       0.136779
  531       0.202915       0.21397       0.225206
  531.3       0.320886       0.335434       0.341931
  531.6       0.470661       0.488032       0.489521
  531.899       0.645855       0.66568       0.651965
  532.2       0.851252       0.871799       0.837822
  532.5        1.07798        1.09289        1.03536
  532.8        1.28991        1.30009        1.21666
  533.101        1.45395        1.46808        1.36644
  533.4        1.57998        1.60337        1.49313
  533.7        1.69024        1.72547        1.6031
  534.001        1.78372        1.82836        1.69258
  534.3        1.85904        1.90668        1.76474
  534.6        1.91619        1.9626        1.81116
  534.9        1.97454        2.0147        1.85716
  535.2        2.0419        2.08348        1.91358
  535.5        2.1015        2.15374        1.98128
  535.8        2.15679        2.21247        2.03865
  536.1        2.23215        2.27477        2.08731
  536.4        2.34147        2.34811        2.12381
  536.701        2.5446        2.44736        2.1287
  537        2.94965        2.61825        2.09812
  537.3        3.47973        2.85214        2.10102
  537.601        3.53098        2.86363        2.1333
  537.9        2.95173        2.49041        2.00875
  538.2        2.22199        2.00497        1.78824
  538.5        1.66182        1.64195        1.61157
  538.801        1.29633        1.41332        1.49758
  539.101        1.08133        1.32747        1.49538
  539.4       0.975999        1.38996        1.64676
  539.7       0.951231        1.54535        1.8828
  540       0.991426        1.60977        1.965
  540.3        1.06685        1.52099        1.80207
  540.601        1.14923        1.40207        1.56563
  540.9        1.20951        1.31904        1.38874
  541.199        1.23189        1.2553        1.26432
  541.5        1.22992        1.18973        1.16648
  541.8        1.20549        1.11768        1.06914
  542.1        1.16896        1.04817       0.96981
  542.4        1.16556        1.00298       0.891235
  542.7        1.22423        1.00649       0.840234
  542.999        1.31119        1.03403       0.814537
  543.301        1.35219        1.04363       0.80128
  543.6        1.30105        1.01595       0.794404
  543.9        1.17907       0.951683       0.790085
  544.2        1.03066       0.884679       0.789
  544.5       0.910254       0.833337       0.792352
  544.8       0.835888       0.809528       0.812715
  545.101       0.800372       0.811682       0.840164
  545.4       0.773217       0.822653       0.881132
  545.7       0.74196       0.824336       0.914373
  546       0.704927       0.815701       0.931385
  546.301       0.662798       0.797173       0.928166
  546.6       0.630762       0.775904       0.913706
  546.901       0.61278       0.764287       0.905772
  547.2       0.613581       0.762       0.902047
  547.501       0.630057       0.769797       0.897956
  547.8       0.654581       0.779675       0.888759
  548.1       0.67963       0.783187       0.880122
  548.4       0.714017       0.797736       0.879874
  548.701       0.761024       0.832615       0.893787
  549.001       0.819802       0.882776       0.929235
  549.301       0.886215       0.944602       0.979214
  549.601       0.941562       0.990755        1.02203
  549.901       0.97722        1.02464        1.05161
  550.5        1.01641        1.07926        1.10585
  551.25        1.09283        1.17683        1.20484
  552        1.20234        1.25667        1.25707
  552.75        1.30387        1.27981        1.22908
  553.501        1.36284        1.26487        1.16181
  554.25        1.43037        1.2726        1.11837
  555        1.52544        1.32193        1.13235
  555.751        1.53788        1.35898        1.18211
  556.5        1.4697        1.37159        1.25319
  557.25        1.3632        1.37117        1.33901
  558.001        1.24679        1.35258        1.39654
  558.751        1.14438        1.2906        1.37855
  559.5        1.06777        1.199        1.28895
  560.25        1.02647        1.11689        1.18205
  561        1.01306        1.06526        1.10526
  561.751       0.998984        1.02473        1.05035
  562.5       0.969145       0.9809       0.99977
  563.251       0.942833       0.946611       0.961897
  564       0.925771       0.93358       0.952281
  564.75       0.924777       0.949292       0.968622
  565.5       0.931588       0.966063       0.998958
  566.25       0.941219       0.989452        1.02681
  567.001       0.957849        1.00494        1.04644
  567.751       0.979061        1.01516        1.046
  568.5        1.00234        1.01979        1.02995
  569.25        1.01846        1.01571        1.01327
  570        1.02667        1.01744        1.00549
  573        1.0307        1.03245        1.02946
  576       0.991701       0.996129        1.00252
  579       0.979962       0.962511       0.95327
  582        1.02387        1.01521        1.00391
  585        1.05257        1.0896        1.11281
  588.001        1.04106        1.07074        1.09494
  591       0.96485       0.973097       0.985646
  594       0.91388       0.927434       0.947248
  597       0.920096       0.916833       0.924665
  600       0.932403       0.925874       0.930814
  603       0.957436       0.949873       0.951056
  606       0.953941       0.948464       0.950356
  609       0.963837       0.962354       0.964432
  612       0.979357       0.97869       0.982002
  614.999       0.997941       0.998235       0.998744
  618        1.0232        1.01641        1.01093
  621        1.04475        1.03201        1.01806
  624        1.04862        1.03046        1.01865
  627.001        1.02525        1.01436        1.00298
  630       0.997462       0.997199       0.995587
  633       0.986862       0.982417       0.981824
  636       0.986663       0.975995       0.964722
  639.001       0.980734       0.96232       0.947797
  642       0.972322       0.951283       0.934801
  645       0.968981       0.945247       0.928364
  648       0.967876       0.946481       0.926048
  650       0.976228       0.952361       0.929757